File: battery_ml.csv
,dq_min,dq_mean,dq_variance,dq_skewness,dq_kurtosis,slope_100_2,intercept_100_2,discharge_capacity_2,discharge_capacity_100,diff_QD_n_2,slope_100_91,intercept_100_91,ave_chg_time_5_1,max_temp_100_2,min_temp_100_2,Integral_temp_100_2,integral_resistance_2,minimum_IR,difference_IR_100_2,cycle_life
0,-0.00845964,-0.00287342,9.6636e-06,-0.532058,-1.34831,-0.000213746,1.09138,1.07069,1.07591,0.468365,4.57881e-05,1.07145,13.3749,31.6325,31.2669,18.742,0.0167424,0.0,-7.52e-05,1852
1,-0.0110038,-0.00409961,9.68368e-06,-0.429375,-1.02912,6.67602e-06,1.08093,1.0753,1.08063,0.0092883,-3.71726e-05,1.08438,13.4092,31.3766,31.0762,19.7437,0.0170388,0.0,-4.1991e-05,2160
2,-0.0172164,-0.00448673,1.83232e-05,-1.08019,0.348637,1.1498e-05,1.08481,1.07992,1.08494,0.0081312,-3.9881e-05,1.08896,13.3582,31.4471,31.1467,19.986,0.01686798,0.0,-1.3807e-05,2237
3,-0.0189605,-0.00745578,3.609e-05,-0.43905,-1.09542,1.84679e-05,1.08403,1.07972,1.08475,0.0065301,-1.85357e-06,1.08496,12.0251,29.983,29.857,18.641,0.0163697,0.0,3.8581e-05,1434
4,-0.013958,-0.00575001,2.25038e-05,-0.362548,-1.33383,2.04608e-05,1.08182,1.07842,1.08265,0.0058999,-3.41274e-05,1.08599,12.0419,31.43331,31.18136,21.1545,0.0167874,0.0,-5.3314e-05,1709
5,-0.0251788,-0.0110739,6.62403e-05,-0.14935,-1.22753,1.26456e-05,1.07971,1.07613,1.07978,0.0059438,-2.55905e-05,1.08231,10.9678,30.7868,30.5911,21.6284,0.0164376,0.0,-0.000111867,1074
6,-0.037886,-0.0159651,0.000170264,-0.407936,-1.23807,-2.99255e-06,1.08109,1.07584,1.07924,0.0063032,-5.97024e-05,1.08525,10.0765,32.024,31.80961,15.2451,0.017002,0.0,-0.000333346,636
7,-0.0382334,-0.0166457,0.000153643,-0.333417,-1.12054,-5.39085e-06,1.09722,1.09386,1.09576,0.0041042,-4.30655e-05,1.10007,10.0251,31.8582,31.6296,16.0584,0.0163112,0.0,-3.8421e-05,870
8,-0.0287245,-0.0115106,8.722e-05,-0.427591,-1.18217,1.94174e-05,1.08673,1.08297,1.08763,0.0059757,-1.32274e-05,1.08896,11.208,32.4219,32.3017,13.1385,0.0169782,0.0,-3.3666e-05,1054
9,-0.0236915,-0.00837821,7.13023e-05,-0.594848,-1.20556,2.33482e-05,1.05892,1.05378,1.05997,0.0094604,-1.22083e-05,1.06117,11.6689,32.79211,32.5817,15.4002,0.0165751,0.0,-0.000303578,788
10,-0.028294,-0.0119462,8.99353e-05,-0.282453,-1.31329,2.77542e-05,1.07471,1.07097,1.0762,0.0068777,-2.02643e-05,1.07822,10.7643,32.9204,32.7256,13.4273,0.0171212,0.0,-6.8115e-05,880
11,-0.0289446,-0.0110131,9.59513e-05,-0.481999,-1.25046,3.07706e-05,1.06612,1.06112,1.06775,0.0082151,-2.43393e-05,1.07017,10.7977,32.9462,32.7615,16.2492,0.017168,0.0,-0.000253296,719
12,-0.0276067,-0.0124038,7.95401e-05,-0.12295,-1.2281,2.48222e-05,1.08523,1.08117,1.08632,0.0074255,-3.02845e-05,1.08934,10.1131,32.0467,31.9015,10.0018,0.01683085,0.0,-1.4819e-05,862
13,-0.031068,-0.0133431,0.000107113,-0.255988,-1.2907,1.91649e-05,1.07615,1.072052,1.07698,0.0071738,-9.26429e-06,1.07795,10.1469,31.7843,31.6406,13.6831,0.0167786,0.0,2.2163e-05,857
14,-0.0441332,-0.0207024,0.000223831,-0.0520789,-1.34653,-0.000284664,1.10113,1.06617,1.06453,1.81791,-0.000136415,1.07783,9.95817,32.0367,31.899,15.1785,0.0198861,0.0,-0.003994543,691
15,-0.0458927,-0.0201063,0.000239935,-0.273424,-1.27541,-9.38983e-06,1.08886,1.08511,1.08709,0.0041907,-6.10917e-05,1.09291,9.92474,32.6843,32.5238,14.2367,0.0164497,0.0,-6.6087e-05,788
16,-0.0635804,-0.032796,0.000429302,0.241673,-1.07272,-0.000137568,1.07689,1.07263,1.06125,0.0030942,-0.000226696,1.08399,9.02112,32.1469,31.994,15.9234,0.0157407,0.0,-0.000580528,534
17,-0.0647203,-0.0306576,0.000446336,-0.0901667,-1.14308,-7.99062e-05,1.08633,1.08244,1.07673,0.0034874,-0.000157436,1.0925,8.96471,32.9647,32.7106,16.6005,0.0153488,0.0,-0.000203807,559
18,-0.0299535,-0.0133406,9.10346e-05,-0.143174,-1.23061,-6.40726e-06,1.0828,1.07929,1.08169,0.004493,-2.02452e-05,1.08372,11.447,31.8673,31.6908,13.2046,0.0169378,0.0,-9.144e-06,1014
19,-0.0318421,-0.0138735,0.000115169,-0.338863,-1.27419,2.66907e-06,1.07791,1.07454,1.07763,0.0045395,-0.000188936,1.09526,12.1472,33.54303,33.329,15.581,0.0166878,0.0,-4.862e-06,1017
20,-0.0294412,-0.0124062,9.37802e-05,-0.357935,-1.24139,1.56606e-06,1.07879,1.07523,1.07804,0.0046786,-2.75583e-05,1.08085,12.1301,33.8309,33.6455,14.6114,0.0166993,0.0,-1.1264e-05,854
21,-0.0383545,-0.0178502,0.000160243,-0.117068,-1.27667,-1.46472e-05,1.09133,1.08765,1.08937,0.0038948,-0.000233001,1.11121,10.7648,33.08757,32.9742,12.4256,0.0163764,0.0,1.2888e-05,870
22,-0.0358321,-0.0155142,0.000140054,-0.289519,-1.23683,-1.01393e-05,1.08256,1.07905,1.08102,0.0039534,-2.89845e-05,1.08376,10.797,33.768,33.5584,13.9827,0.0161746,0.0,3.188e-05,842
23,-0.0372135,-0.0166981,0.000142984,-0.142633,-1.23848,-6.92902e-06,1.08106,1.07775,1.07969,0.003847,-3.38881e-05,1.08309,11.1299,33.5755,33.3835,14.61,0.0167421,0.0,6.3771e-05,860
24,-0.0368684,-0.0166005,0.000145117,-0.13763,-1.27852,-4.31585e-06,1.08302,1.07945,1.08181,0.0043492,-3.4594e-05,1.08531,11.1795,32.5578,32.43998,11.5152,0.0166263,0.0,1.7818e-05,917
25,-0.0408154,-0.0177191,0.000180012,-0.285191,-1.22699,-1.55719e-05,1.08363,1.07986,1.08141,0.0039545,-3.585e-05,1.085,10.1302,33.4045,33.1911,14.11,0.0160723,0.0,5.8428e-05,709
26,-0.0394782,-0.0179836,0.000166827,-0.110733,-1.24212,-2.56472e-05,1.09839,1.09464,1.09535,0.0036942,-3.72667e-05,1.09912,10.1137,30.4105,30.36055,13.2329,0.0169523,0.0,1.0658e-05,876
27,-0.0455663,-0.0207303,0.000225703,-0.155656,-1.27945,-1.19225e-05,1.08129,1.07784,1.07938,0.0038201,-3.49286e-05,1.08291,10.0964,32.857,32.6945,14.4072,0.0162395,0.0,5.1344e-05,731
28,-0.0449018,-0.0216516,0.00021525,0.0648321,-1.23274,-2.09518e-05,1.09657,1.09249,1.09377,0.0043354,-4.36726e-05,1.09815,10.1464,33.2942,33.1124,15.1489,0.0165918,0.0,-1.7207e-05,757
29,-0.0372181,-0.0160804,0.000141705,-0.150901,-1.1799,5.16545e-07,1.08006,1.07662,1.07942,0.004865,-2.13476e-05,1.08163,11.0679,32.4605,32.3461,12.13,0.0169825,0.0,-2.8376e-05,742
30,-0.039152,-0.0182233,0.000168808,-0.0944873,-1.29992,4.07379e-06,1.07431,1.07075,1.07399,0.0050792,-2.45214e-05,1.07645,11.0512,31.9016,31.8,11.344,0.017059,0.0,3.2435e-05,703
31,-0.0446214,-0.0210424,0.000214042,-0.0241204,-1.28773,-6.27079e-06,1.08161,1.07783,1.08024,0.0045278,-3.84679e-05,1.08409,11.5248,32.1259,31.9637,12.0713,0.0164807,0.0,8.7852e-05,704
32,-0.0445448,-0.0194368,0.000211866,-0.236476,-1.26377,-8.71928e-06,1.07849,1.07482,1.07681,0.0044724,-4.42881e-05,1.08122,11.5744,32.9566,32.84407,12.0859,0.0166079,0.0,6.718e-05,648
33,-0.0564156,-0.0267642,0.000368937,-0.0638104,-1.34835,-8.89168e-06,1.07626,1.07295,1.07498,0.0036465,-1.85476e-06,1.07517,10.2431,33.4236,33.2059,11.7296,0.0162604,0.0,8.8964e-05,617
34,-0.053144,-0.02444,0.000312944,-0.152502,-1.27719,-2.37751e-06,1.0858,1.08178,1.08476,0.0046894,-2.00857e-05,1.08685,10.2584,32.9998,32.9208,13.5869,0.0167436,0.0,9.1571e-05,625
35,-0.0290957,-0.0126288,8.80617e-05,-0.248505,-1.24149,-7.20869e-06,1.08731,1.0833,1.08574,0.0045033,-4.38798e-05,1.09011,12.0712,33.2511,33.1708,12.2826,0.0167565,0.0,6.6569e-05,966
36,-0.0285063,-0.0123586,8.48176e-05,-0.231356,-1.24295,7.67538e-07,1.08286,1.07896,1.08217,0.0049075,-3.07071e-05,1.08525,12.0874,32.951,32.8092,11.429,0.0168569,0.0,-9.89e-07,1051
37,-0.0447096,-0.0205992,0.000215846,-0.107694,-1.31624,3.04813e-06,1.08375,1.07987,1.08328,0.0049595,-3.62869e-05,1.08685,11.1711,33.228,33.1045,10.613,0.0167679,0.0,0.000103314,702
38,-0.0446059,-0.0191656,0.000214892,-0.237254,-1.30261,-2.33405e-05,1.07172,1.06824,1.06884,0.0034321,-3.6569e-05,1.07251,11.1709,33.3378,33.2394,12.3084,0.0161115,0.0,0.000127854,651
39,-0.0587971,-0.0293291,0.000379577,0.13908,-1.28928,-3.29747e-05,1.08853,1.08477,1.08471,0.0035624,-4.67643e-05,1.08942,10.2711,32.1824,32.04871,11.4936,0.0174364,0.0,0.000152771,616
40,-0.0594035,-0.0288661,0.000375585,0.115198,-1.28039,-1.20287e-05,1.08779,1.08396,1.08583,0.0044825,-3.37512e-05,1.08926,10.2545,32.67416,32.5365,13.2168,0.0166857,0.0,0.000150384,599
41,-0.135422,-0.0713383,0.00179592,0.488862,-0.882448,-0.000349156,1.07865,1.07005,1.038452,0.0035296,-0.000653757,1.1047,10.2442,30.1412,29.8132,72.4938,0.0175055,0.0164238,-0.00021299,300
42,-0.138026,-0.0776841,0.00187542,0.930997,-0.509431,-0.00108349,1.08411,1.07207,0.968339,0.0015459,-0.00134411,1.10349,10.3277,30.3673,29.5424,72.1514,0.0175821,0.0162673,-0.000832979,148
43,-0.0545639,-0.0244915,0.000321175,-0.170199,-1.28383,-1.10606e-05,1.07862,1.07354,1.076,0.0064283,-6.85726e-05,1.08277,10.0756,31.4042,31.1868,27.5555,0.0178944,0.0171701,-0.000232082,438
44,-0.100741,-0.056715,0.00117613,0.422061,-1.03463,-0.000223704,1.0724,1.06685,1.046734,0.0020589,-0.000372688,1.08396,10.1353,31.2346,30.5729,59.3304,0.0168259,0.015853,-0.000333825,335
45,-0.0640082,-0.0322315,0.000444626,0.160034,-1.13737,-0.000104848,1.07727,1.0729,1.06509,0.0027499,-0.000187429,1.08391,10.1247,31.4689,31.2521,57.3134,0.0169361,0.0159978,-0.00085516,444
46,-0.0480998,-0.0222202,0.000249635,-0.0793293,-1.27367,2.49918e-07,1.07198,1.06802,1.070745,0.0050053,-0.000102415,1.08075,10.1629,30.7153,30.6118,28.1311,0.0171802,0.0167274,-0.000308501,480
47,-0.0724572,-0.0392748,0.000569653,0.435261,-1.0128,-0.000211805,1.07557,1.06874,1.0522,0.0037921,-0.000304182,1.08247,10.1946,31.2799,30.7357,53.7397,0.0168293,0.0156489,-0.00102919,511
48,-0.0483221,-0.0235048,0.000236421,0.165527,-1.09104,-5.7932e-05,1.07452,1.06905,1.06705,0.0048897,-0.000182763,1.08505,10.115,31.4969,31.0985,41.163,0.0182658,0.0174799,-0.000579358,561
49,-0.056491,-0.0276935,0.000344574,0.088017,-1.20947,-3.9473e-05,1.07626,1.0717,1.07052,0.0042239,-0.000123274,1.08296,10.1071,31.7593,31.6251,45.0917,0.0176068,0.0169881,-0.00052274,477
50,-0.0664457,-0.0350104,0.000478509,0.351602,-1.08413,-0.000145864,1.07643,1.07128,1.06003,0.417843,-0.000242427,1.08426,10.1726,31.8695,31.5513,61.3087,0.0171332,0.0161336,-0.000956277,458
51,-0.076932,-0.0371685,0.000653404,-0.050699,-1.16187,-0.000119422,1.08509,1.080285,1.07162,0.0029318,-0.000189895,1.09058,10.2309,31.2006,30.9812,49.3994,0.0170873,0.0164801,-0.000497063,483
52,-0.0522308,-0.0243665,0.000317138,-0.112798,-1.32296,-2.8231e-06,1.08223,1.07807,1.08095,0.0048147,-5.71e-05,1.08653,10.1142,31.3656,31.1233,25.9435,0.0171642,0.0168953,-0.000133067,485
53,-0.0578195,-0.0244701,0.000372399,-0.300709,-1.25817,2.34384e-05,1.07344,1.06565,1.073837,0.0110646,-3.80667e-05,1.07756,10.1612,31.39164,31.238,52.9257,0.0177801,0.0169749,-0.000504403,494
54,-0.0554333,-0.0265164,0.000296719,0.099581,-1.01157,-7.97734e-05,1.06822,1.063838,1.05881,0.0037714,-0.000135637,1.07236,10.186,31.0416,30.8648,41.2455,0.0175365,0.0166976,-0.000435537,487
55,-0.0645409,-0.0315363,0.000483053,-0.0384687,-1.23044,-0.000177853,1.05125,1.04804,1.03285,0.0016425,-0.000193127,1.052,10.3334,31.7238,31.5544,33.8591,0.0179289,0.01643493,-0.00103487,461
56,-0.0437211,-0.0209081,0.000190136,0.0847656,-1.08596,-4.67956e-06,1.08822,1.0831,1.08626,0.0063896,-0.000131301,1.09901,10.1479,30.4257,30.26903,34.0676,0.0175455,0.0170162,-9.6654e-05,502
57,-0.0587962,-0.0262088,0.000297484,0.128075,-1.19386,-4.26867e-05,1.08209,1.07688,1.07665,0.005137,-0.00016668,1.09276,10.1216,31.2733,30.8331,50.7482,0.0176554,0.0170461,-0.000258873,489
58,-0.0506018,-0.023681,0.000279031,-0.0534787,-1.26875,-6.50271e-06,1.08456,1.079723,1.08254,0.0056468,-9.59274e-05,1.09204,10.1475,31.1702,30.8424,43.1641,0.0173388,0.0168414,-0.000345537,513
59,-0.0524022,-0.0273512,0.000297674,0.267605,-1.16867,-6.52622e-05,1.07886,1.07452,1.07142,0.00356,-0.00012974,1.08418,10.2507,30.7038,30.39805,49.4954,0.017877,0.0168678,-0.00082546,527
60,-0.0440373,-0.0195804,0.000201464,-0.140644,-1.17595,4.17166e-06,1.07189,1.06797,1.07101,0.0054579,-0.000117195,1.08247,10.0589,30.8605,30.4973,37.1542,0.0174887,0.0167777,-0.000260558,495
61,-0.0569455,-0.0267556,0.000352807,-0.022467,-1.267,-2.84983e-05,1.07203,1.06727,1.06767,0.0048971,-0.000130731,1.08064,10.042,29.9854,29.593,35.6207,0.0176784,0.0169276,-0.000553833,461
62,-0.0589464,-0.0288121,0.000391597,0.0748635,-1.31064,-3.48802e-05,1.08249,1.07664,1.07731,0.0058852,-9.72179e-05,1.0872,10.0082,30.8819,30.5438,48.9388,0.0180489,0.0172807,-0.000577019,471
63,-0.0502499,-0.0230386,0.000274278,-0.0907819,-1.26596,2.2341e-06,1.07054,1.065841,1.06936,0.005946,-5.26071e-05,1.07471,10.1474,31.008,30.6002,41.1258,0.0176243,0.0171415,-0.00026701,468
64,-0.051673,-0.0241171,0.000300414,-0.131648,-1.29745,7.63497e-06,1.07632,1.07155,1.07591,0.0063132,-5.92988e-05,1.08218,10.1397,31.8949,31.69824,39.5889,0.017234,0.01686197,-8.4983e-05,509
65,-0.041098,-0.0176219,0.000195478,-0.285767,-1.36246,3.43145e-05,1.07652,1.0725,1.0788,0.0068375,-1.96857e-05,1.08063,10.1146,32.2552,31.5769,59.3317,0.0171446,0.0168377,4.1012e-05,498
66,-0.0472698,-0.0207637,0.000248431,-0.199114,-1.28909,1.01518e-05,1.07166,1.06728,1.071249,0.0058776,-6.28167e-05,1.07753,10.0973,31.2105,30.9368,34.6747,0.017789,0.017363,-0.00031568,481
67,-0.045379,-0.0219302,0.000236013,-0.00459396,-1.35865,1.42104e-05,1.07852,1.07328,1.07851,0.0068458,-7.02738e-05,1.0855,10.1469,31.0527,30.7737,45.6268,0.01768863,0.0173823,-3.7204e-05,492
68,-0.0578123,-0.0241888,0.000325784,-0.20838,-1.3055,1.86357e-05,1.07874,1.07427,1.07951,0.0066598,-0.000100955,1.08925,10.1304,31.7147,31.56394,35.3756,0.0176457,0.0172739,0.000109414,519
69,-0.0431727,-0.0197429,0.000207195,-0.0747167,-1.35302,2.19274e-05,1.08348,1.079052,1.08479,0.006544,-2.1306e-05,1.08672,10.1292,31.6546,31.4247,48.2655,0.0176951,0.0174064,9.9076e-05,520
70,-0.0423991,-0.0186755,0.000197953,-0.126431,-1.34747,2.21259e-05,1.07357,1.06885,1.07469,0.0068526,-7.25345e-05,1.08175,10.1641,32.1225,31.8392,42.2676,0.0176624,0.0173371,-0.00014857,499
71,-0.0534496,-0.0234972,0.000324959,-0.18688,-1.37955,1.49936e-06,1.07329,1.06872,1.07185,0.0057665,-8.16071e-05,1.07998,10.1303,32.4278,31.7183,52.9483,0.0174606,0.0169432,-0.000378346,463
72,-0.0490234,-0.0204285,0.000272864,-0.329543,-1.32072,2.53938e-05,1.0839,1.079731,1.08524,0.0063388,-6.39024e-05,1.09133,10.1477,31.95656,31.3419,46.0432,0.02021559,0.0200222,9.9549e-05,535
73,-0.0511337,-0.0233113,0.000299821,-0.112654,-1.37884,3.64858e-05,1.07885,1.07482,1.081265,0.0068574,-4.79036e-05,1.08588,10.1147,31.0941,30.8187,41.3352,0.0182263,0.01798249,9.3412e-05,478
74,-0.0513826,-0.0247071,0.00029091,0.0404567,-1.31936,1.79264e-05,1.07405,1.06995,1.074622,0.0057986,-3.76845e-05,1.07843,10.1485,30.8641,30.4291,40.5953,0.017847,0.0175773,-3.5675e-05,465
75,-0.0520448,-0.0255129,0.000312178,0.0503028,-1.38719,3.34427e-05,1.08423,1.07846,1.08632,0.0084206,-3.95452e-05,1.09005,10.1445,30.8154,30.5098,33.0273,0.0181747,0.0178821,7.4465e-05,459
76,-0.050291,-0.0238973,0.00027551,0.0315894,-1.31346,-1.91092e-05,1.08224,1.07655,1.07984,0.0065683,-3.71869e-05,1.08355,10.1316,31.7646,31.6463,19.9807,0.0175821,0.0168224,-0.000469548,499
77,-0.0565803,-0.0258235,0.000363846,-0.135956,-1.38062,1.85896e-05,1.07382,1.0682,1.0737,0.0079039,-5.05167e-05,1.07923,10.128,31.7136,31.6139,17.9092,0.0179385,0.0174914,-7.859e-05,429
78,-0.0499718,-0.0236932,0.000258645,0.0767126,-1.24424,1.34039e-05,1.08246,1.07802,1.082616,0.0060867,-7.10107e-05,1.08956,10.1305,31.3054,31.0412,21.6901,0.0173945,0.0169976,-9.2953e-05,466
79,-0.0594252,-0.0283388,0.000402746,-0.0101418,-1.3618,1.3956e-05,1.07893,1.07356,1.07908,0.0070754,-4.50167e-05,1.0834,10.1292,31.18,31.0262,23.2771,0.01812768,0.0178798,9.0351e-05,462
80,-0.0569336,-0.0264745,0.000352711,-0.0407535,-1.29304,2.35227e-05,1.07517,1.070887,1.07636,0.473831,-2.77774e-05,1.07917,10.1469,31.10401,31.01469,17.3137,0.01761589,0.0174088,0.000186326,457
81,-0.043516,-0.0208557,0.000204919,0.0288603,-1.29721,-5.74594e-06,1.07482,1.07047,1.07304,0.0051856,-0.00010906,1.08362,10.0971,30.9838,30.8337,16.1493,0.0171533,0.0168356,-0.000126906,487
82,-0.060268,-0.0300821,0.000427619,0.0622968,-1.35549,3.06374e-05,1.07759,1.07261,1.07952,0.0073842,-2.49667e-05,1.08195,10.1469,30.6634,30.5383,18.2538,0.017752,0.0175516,0.000247778,429
83,-0.0296132,-0.0119885,9.24846e-05,-0.271469,-1.21087,-7.68605e-06,1.04933,1.04214,1.04702,0.0081127,-7.6931e-05,1.05469,10.1127,30.5759,30.5168,16.5995,0.0179234,0.0168819,-0.000836281,713
84,-0.0233117,-0.0101022,5.68702e-05,-0.195122,-1.17188,-4.50582e-06,1.07063,1.06746,1.06945,0.0039161,-5.44286e-05,1.07477,10.0445,32.1226,31.8784,72.695,0.015399,0.015158,-0.000128412,1009
85,-0.0223242,-0.00962102,5.18152e-05,-0.28637,-1.12399,-1.40518e-05,1.06845,1.06506,1.06648,0.0036796,-7.7206e-05,1.07405,10.0411,34.6218,34.0509,72.0442,0.015162,0.0149315,-0.000102823,1063
86,-0.0268366,-0.0107054,7.64526e-05,-0.47955,-1.0204,-1.20005e-05,1.06528,1.06289,1.06359,0.002645,-9.1775e-05,1.07253,10.0421,36.0641,35.6205,59.2108,0.0150066,0.014877,5.6055e-05,1115
87,-0.0248103,-0.0101064,6.63032e-05,-0.435859,-1.10812,-4.67437e-06,1.07479,1.07248,1.07386,0.0027885,-3.23298e-05,1.07699,10.045,32.126,31.9348,64.3198,0.0152468,0.0150422,-6.7334e-05,1048
88,-0.0254451,-0.0114458,7.6838e-05,-0.162982,-1.28473,-1.53691e-05,1.05395,1.05145,1.05185,0.0026052,-7.83095e-05,1.05952,10.0419,34.9253,34.2535,76.3966,0.0153742,0.01505,-0.000167234,828
89,-0.0532016,-0.0285176,0.000298052,0.483159,-0.867078,-0.000202274,1.06408,1.06261,1.04378,0.0004592,-0.000254094,1.06903,10.0625,34.0407,33.4635,65.6521,0.0135272,0.013517,0.000320148,667
90,-0.017059,-0.00703778,3.24532e-05,-0.340783,-1.20076,-1.17331e-06,1.07026,1.06752,1.06847,0.0033972,-1.9631e-06,1.06995,11.0416,32.5315,32.3646,65.8152,0.0155355,0.0153726,-3.5403e-05,1836
91,-0.026849,-0.0118064,8.09462e-05,-0.215072,-1.27915,-2.30598e-06,1.06814,1.06474,1.067026,0.0039782,-3.42036e-05,1.07051,10.045,32.7519,32.4135,72.2022,0.0154381,0.0150423,-0.000172681,828
92,-0.0295753,-0.014478,0.00010416,-0.0558486,-1.34722,1.22802e-06,1.07281,1.06948,1.07245,0.0038881,-1.82583e-05,1.07417,10.0417,32.8274,32.535,62.3856,0.0159032,0.0157423,-2.9396e-05,1039
93,-0.019093,-0.00833518,3.87832e-05,-0.244956,-1.19188,-1.3241e-06,1.06447,1.06177,1.06239,0.0032262,-4.90464e-05,1.06852,11.045,32.1341,31.8876,73.5848,0.015551,0.0152766,-0.000143864,1078
94,-0.0340874,-0.0156207,0.00013034,-0.140193,-1.26561,-1.68973e-05,1.0707,1.06807,1.0683,0.0026928,-3.87274e-05,1.07222,10.0422,34.0892,33.2953,67.3592,0.0156081,0.0153493,-4.956e-05,817
95,-0.0317349,-0.0153149,0.000113034,0.00900791,-1.28337,-6.08944e-06,1.07666,1.07417,1.07553,0.0027777,-2.04714e-05,1.07763,10.0425,33.2731,32.6016,74.8352,0.0161394,0.01593674,-4.0386e-05,932
96,-0.0276461,-0.0117655,8.04514e-05,-0.258269,-1.19794,-1.11423e-05,1.0693,1.065558,1.067306,0.0040867,-5.41786e-05,1.07267,10.0423,33.8424,33.1607,66.9107,0.0152504,0.0148379,-0.000145141,816
97,-0.0292824,-0.0132036,0.000100077,-0.192043,-1.31984,5.71786e-06,1.07674,1.07271,1.07639,0.0050386,-1.42833e-05,1.07786,10.0417,33.1445,32.5176,73.6252,0.0156688,0.0152862,-7.741e-05,858
98,-0.0294843,-0.0133403,9.98425e-05,-0.153824,-1.28427,-1.07754e-05,1.07111,1.06842,1.06936,0.0028587,-0.000139455,1.08265,10.0415,33.2752,32.577,53.8832,0.0154174,0.0151055,-9.0272e-05,876
99,-0.013452,-0.0053233,2.02063e-05,-0.053272,-0.888633,-9.04925e-06,1.06398,1.061009,1.06256,0.0033309,-0.0001504,1.07683,11.0434,35.2887,34.5251,77.3953,0.0154539,0.0151478,-0.000120936,1638
100,-0.0178824,-0.00723622,3.63318e-05,0.016698,-0.815241,-5.4859e-06,1.06733,1.06645,1.06646,0.0025996,-8.26548e-06,1.06744,10.042,35.0044,34.6192,63.0885,0.0155246,0.01535425,-0.000162275,1315
101,-0.0234558,-0.0103423,5.57119e-05,-0.228962,-1.05712,-2.87613e-05,1.07034,1.06802,1.067,0.0021301,-6.7781e-05,1.07382,10.0431,35.2656,34.8916,70.2133,0.0150982,0.0149628,-3.744e-05,1146
102,-0.0252937,-0.0115455,6.73067e-05,-0.120878,-1.11188,-2.91858e-05,1.07422,1.07192,1.07086,0.0019749,-8.95571e-05,1.0797,10.0434,35.2306,34.8124,72.6101,0.0155558,0.0151783,-4.249e-05,1155
103,-0.028072,-0.0119194,8.58332e-05,-0.33953,-1.1828,-6.36767e-06,1.06779,1.06505,1.06644,0.0030607,-3.94095e-05,1.07043,10.0433,32.8321,32.3388,77.5878,0.0154098,0.0152069,-7.6357e-05,813
104,-0.0432761,-0.0235387,0.000197548,0.50614,-0.846088,-0.000159125,1.0701,1.06786,1.05383,0.0008404,-0.000187798,1.07269,10.0679,34.8828,33.9699,69.1355,0.0139436,0.013938,0.000233937,772
105,-0.0284093,-0.0137226,8.97796e-05,0.0529221,-1.26897,-1.54531e-05,1.05895,1.05626,1.0569,0.0028446,-4.86393e-05,1.06185,10.0434,34.7886,34.3548,64.8201,0.0158528,0.0156148,-0.000122983,1002
106,-0.0247724,-0.0103455,6.99431e-05,-0.335749,-1.26185,1.0662e-05,1.04991,1.04627,1.050084,0.0048557,-6.88524e-05,1.05684,10.0422,34.5091,34.126,73.2568,0.0157512,0.01550305,-0.000150559,825
107,-0.0265762,-0.0109258,7.13574e-05,-0.366351,-1.07333,8.05458e-06,1.06443,1.06113,1.06437,0.0043403,-5.25452e-05,1.06958,10.0416,35.4848,34.8453,78.7337,0.015752,0.015591,-4.9246e-05,989
108,-0.0241791,-0.0101396,6.03243e-05,-0.342155,-1.06048,4.42736e-07,1.0751,1.07202,1.074435,0.0037909,-4.71119e-05,1.07908,10.0418,35.8024,35.0754,70.9816,0.0156934,0.0155386,-4.2369e-05,1028
109,-0.0266003,-0.0107099,7.41084e-05,-0.361155,-1.11415,-3.04814e-06,1.06388,1.06042,1.06276,0.0040355,-4.92119e-05,1.06763,10.045,35.3474,34.7455,73.2778,0.0150735,0.0148623,-9.9548e-05,850
110,-0.0578311,-0.0302561,0.000353461,0.299642,-0.980301,-0.000196962,1.05458,1.05187,1.03401,0.0008317,-0.00027446,1.06134,10.0591,35.3169,34.5137,68.879,0.0131694,0.0131694,0.000435923,541
111,-0.0289215,-0.0113006,8.63821e-05,-0.348449,-1.17976,5.47234e-06,1.07024,1.06637,1.06963,0.004832,-6.43071e-05,1.07598,10.0417,31.2711,31.1739,53.6559,0.0149623,0.0145522,-0.000165511,858
112,-0.0267372,-0.0111376,7.93916e-05,-0.387312,-1.13691,-2.74236e-06,1.07186,1.06874,1.07101,0.0036005,-4.16381e-05,1.07506,10.0437,31.9913,31.7197,61.1468,0.0157325,0.015215,-0.000114126,935
113,-0.0356194,-0.0163505,0.000144676,-0.120853,-1.29164,-8.20065e-06,1.07123,1.06818,1.06981,0.0034605,-3.5119e-05,1.07326,10.0465,34.2644,33.5798,77.5535,0.0159835,0.0158123,-2.9832e-05,731
114,-0.0198859,-0.00784868,4.01885e-05,-0.420035,-1.00893,-1.18277e-05,1.06278,1.060272,1.06092,0.0026444,-5.52119e-05,1.06647,10.0433,33.2183,32.9063,82.0606,0.0155112,0.0152569,-0.000153993,1284
115,-0.0215099,-0.00955201,4.94698e-05,-0.18408,-1.15582,-2.03092e-05,1.0643,1.061535,1.06155,0.0027431,-7.49679e-05,1.06906,10.0442,35.9603,35.4938,75.9415,0.0154388,0.0152202,-0.000106908,1158
116,-0.0230281,-0.00982643,5.82293e-05,-0.296336,-1.15282,-1.91314e-05,1.06548,1.06338,1.06323,0.0020494,-5.08369e-05,1.06829,10.0431,35.5798,35.0403,70.835,0.01549053,0.015273,-7.6015e-05,1093
117,-0.0229818,-0.00990836,5.57882e-05,-0.251121,-1.09683,-2.13575e-05,1.06046,1.05753,1.05777,0.0030761,-7.49452e-05,1.06512,10.0438,36.3134,35.7064,75.1105,0.0152678,0.0150568,-8.8288e-05,923
118,-0.020147,-0.00869308,4.54932e-05,-0.0541647,-1.17689,-8.1969e-06,1.07241,1.07015,1.07107,0.0025093,-6.53179e-05,1.07757,10.0445,34.7966,34.2263,75.9029,0.015988,0.0157429,-0.000115897,1935
119,-0.0174579,-0.00642844,3.51047e-05,-0.292539,-1.00301,-5.63145e-06,1.05089,1.0474,1.0495,0.004107,-4.90952e-06,1.05022,10.0438,34.219,33.8997,51.4899,0.0157407,0.0154808,-0.000155274,1156
120,-0.0220538,-0.00907886,5.06864e-05,-0.315431,-1.13851,-6.62501e-06,1.06336,1.05932,1.06176,0.00451,-4.20226e-05,1.06605,10.0436,33.9112,32.9819,66.842,0.0155619,0.0149956,-0.000234305,796
121,-0.024193,-0.00974805,6.03241e-05,-0.357134,-1.06313,1.0664e-05,1.05385,1.05052,1.05415,0.0043619,-5.6594e-05,1.05971,10.043,33.6217,32.6481,72.0704,0.01854171,0.0170067,-0.000173132,786
122,-0.0259851,-0.0112311,7.38762e-05,-0.244616,-1.2384,5.49464e-06,1.07305,1.06972,1.07293,0.0041849,-2.80429e-05,1.07561,10.0434,33.1116,32.6261,64.6414,0.015723,0.0155047,-0.000105745,940
123,-0.016478,-0.00713175,3.01404e-05,-0.328143,-1.17713,4.36034e-07,1.07145,1.06955,1.07113,0.0025962,-1.11393e-05,1.07211,11.0376,32.6829,32.2652,77.5536,0.015742,0.0153885,-7.954e-05,1801